Folder: Uni---second-year-assignments/Y3-Labs/XRD/Raw XRD Data/Filter Data (part 2)

File: 2 2 0.2.txt
        30,       285,
     30.02,       308,
     30.04,       319,
     30.06,       296,
     30.08,       296,
      30.1,       300,
     30.12,       270,
     30.14,       296,
     30.16,       304,
     30.18,       303,
      30.2,       281,
     30.22,       323,
     30.24,       285,
     30.26,       303,
     30.28,       284,
      30.3,       305,
     30.32,       321,
     30.34,       321,
     30.36,       308,
     30.38,       313,
      30.4,       295,
     30.42,       300,
     30.44,       285,
     30.46,       289,
     30.48,       313,
      30.5,       317,
     30.52,       325,
     30.54,       303,
     30.56,       357,
     30.58,       375,
      30.6,       383,
     30.62,       387,
     30.64,       387,
     30.66,       384,
     30.68,       380,
      30.7,       367,
     30.72,       368,
     30.74,       369,
     30.76,       368,
     30.78,       364,
      30.8,       379,
     30.82,       360,
     30.84,       379,
     30.86,       373,
     30.88,       329,
      30.9,       368,
     30.92,       356,
     30.94,       382,
     30.96,       351,
     30.98,       365,
        31,       371,
     31.02,       353,
     31.04,       392,
     31.06,       349,
     31.08,       351,
      31.1,       346,
     31.12,       395,
     31.14,       320,
     31.16,       355,
     31.18,       398,
      31.2,       379,
     31.22,       381,
     31.24,       411,
     31.26,       430,
     31.28,       481,
      31.3,       490,
     31.32,       527,
     31.34,       632,
     31.36,       622,
     31.38,       675,
      31.4,       685,
     31.42,       731,
     31.44,       741,
     31.46,       753,
     31.48,       836,
      31.5,      1002,
     31.52,      1020,
     31.54,      1469,
     31.56,      1809,
     31.58,      2539,
      31.6,      3603,
     31.62,      5562,
     31.64,      8849,
     31.66,     13026,
     31.68,     18501,
      31.7,     25239,
     31.72,     27783,
     31.74,     24379,
     31.76,     17943,
     31.78,     14828,
      31.8,     13498,
     31.82,     10565,
     31.84,      5781,
     31.86,      2648,
     31.88,      1481,
      31.9,      1155,
     31.92,       990,
     31.94,       884,
     31.96,       844,
     31.98,       758,
        32,       702,
     32.02,       676,
     32.04,       619,
     32.06,       572,
     32.08,       543,
      32.1,       481,
     32.12,       444,
     32.14,       426,
     32.16,       435,
     32.18,       381,
      32.2,       365,
     32.22,       375,
     32.24,       344,
     32.26,       365,
     32.28,       368,
      32.3,       320,
     32.32,       360,
     32.34,       345,
     32.36,       296,
     32.38,       348,
      32.4,       312,
     32.42,       359,
     32.44,       318,
     32.46,       342,
     32.48,       318,
      32.5,       353,
     32.52,       291,
     32.54,       303,
     32.56,       317,
     32.58,       299,
      32.6,       298,
     32.62,       345,
     32.64,       314,
     32.66,       318,
     32.68,       278,
      32.7,       296,
     32.72,       315,
     32.74,       286,
     32.76,       299,
     32.78,       319,
      32.8,       287,
     32.82,       280,
     32.84,       294,
     32.86,       320,
     32.88,       297,
      32.9,       272,
     32.92,       305,
     32.94,       277,
     32.96,       285,
     32.98,       255,
        33,       276,
     33.02,       288,
     33.04,       283,
     33.06,       281,
     33.08,       312,
      33.1,       268,
     33.12,       261,
     33.14,       285,
     33.16,       296,
     33.18,       292,
      33.2,       254,
     33.22,       267,
     33.24,       271,
     33.26,       261,
     33.28,       275,
      33.3,       267,
     33.32,       285,
     33.34,       258,
     33.36,       281,
     33.38,       303,
      33.4,       239,
     33.42,       264,
     33.44,       275,
     33.46,       236,
     33.48,       278,
      33.5,       270,
     33.52,       243,
     33.54,       272,
     33.56,       267,
     33.58,       235,
      33.6,       254,
     33.62,       274,
     33.64,       265,
     33.66,       257,
     33.68,       242,
      33.7,       226,
     33.72,       247,
     33.74,       264,
     33.76,       269,
     33.78,       257,
      33.8,       234,
     33.82,       252,
     33.84,       273,
     33.86,       246,
     33.88,       269,
      33.9,       259,
     33.92,       251,
     33.94,       231,
     33.96,       261,
     33.98,       228,
        34,       239,