Folder: Uni---second-year-assignments/Y3-Labs/XRD/Raw XRD Data/Filter Data

Note: Y3-Labs/README.md
This folder contains the code used when undertaking two different laboratory-based projects. The first was investigating the phenomenon of ***Electron Spin Resonance*** (ESR), and the second was the investigation into ***X-Ray diffraction*** (XRD) of different materials. 

Both projects required us to fit models to the data to come to draw a scientific conclusion of the particular characteristics/ phenomena being investigated.

Attached are also a lab report for the ESR project, and a poster of the XRD project. The final grade for the combinaton of the two projects was **74%**.

File: 2 1 0.1.txt
      31.1,        93,
     31.11,        97,
     31.12,       113,
     31.13,        95,
     31.14,        93,
     31.15,        94,
     31.16,        99,
     31.17,       100,
     31.18,       106,
     31.19,       106,
      31.2,       110,
     31.21,       100,
     31.22,       102,
     31.23,       104,
     31.24,       105,
     31.25,       122,
     31.26,       117,
     31.27,       121,
     31.28,       126,
     31.29,       125,
      31.3,       133,
     31.31,       128,
     31.32,       127,
     31.33,       152,
     31.34,       170,
     31.35,       145,
     31.36,       170,
     31.37,       196,
     31.38,       178,
     31.39,       185,
      31.4,       183,
     31.41,       174,
     31.42,       194,
     31.43,       228,
     31.44,       211,
     31.45,       218,
     31.46,       201,
     31.47,       218,
     31.48,       262,
     31.49,       215,
      31.5,       233,
     31.51,       244,
     31.52,       248,
     31.53,       288,
     31.54,       324,
     31.55,       405,
     31.56,       435,
     31.57,       514,
     31.58,       541,
     31.59,       646,
      31.6,       786,
     31.61,       956,
     31.62,      1122,
     31.63,      1304,
     31.64,      1410,
     31.65,      1804,
     31.66,      2321,
     31.67,      3076,
     31.68,      4235,
     31.69,      5633,
      31.7,      7637,
     31.71,      9728,
     31.72,     11108,
     31.73,     10483,
     31.74,      8101,
     31.75,      5872,
     31.76,      4472,
     31.77,      3908,
     31.78,      4503,
     31.79,      5112,
      31.8,      5610,
     31.81,      5228,
     31.82,      4023,
     31.83,      2662,
     31.84,      1627,
     31.85,      1016,
     31.86,       736,
     31.87,       524,
     31.88,       454,
     31.89,       417,
      31.9,       334,
     31.91,       329,
     31.92,       310,
     31.93,       247,
     31.94,       267,
     31.95,       231,
     31.96,       252,
     31.97,       259,
     31.98,       255,
     31.99,       263,
        32,       228,
     32.01,       263,
     32.02,       214,
     32.03,       230,
     32.04,       206,
     32.05,       221,
     32.06,       179,
     32.07,       153,
     32.08,       165,
     32.09,       146,
      32.1,       143,
     32.11,       132,
     32.12,       113,
     32.13,       143,
     32.14,       100,
     32.15,       119,
     32.16,       109,
     32.17,        89,
     32.18,       109,
     32.19,        88,
      32.2,       112,
     32.21,        87,
     32.22,        91,
     32.23,       107,
     32.24,       107,
     32.25,        87,
     32.26,        97,
     32.27,        78,
     32.28,        91,
     32.29,        90,
      32.3,        92,
     32.31,        81,
     32.32,        97,
     32.33,        85,
     32.34,        90,
     32.35,        96,
     32.36,        77,
     32.37,        98,
     32.38,        66,
     32.39,        90,
      32.4,        80,

File: 2 1 0.2.txt
      30.5,       152,
     30.51,       166,
     30.52,       185,
     30.53,       206,
     30.54,       191,
     30.55,       182,
     30.56,       195,
     30.57,       180,
     30.58,       223,
     30.59,       212,
      30.6,       211,
     30.61,       248,
     30.62,       223,
     30.63,       278,
     30.64,       248,
     30.65,       246,
     30.66,       225,
     30.67,       245,
     30.68,       211,
     30.69,       251,
      30.7,       263,
     30.71,       211,
     30.72,       244,
     30.73,       210,
     30.74,       222,
     30.75,       205,
     30.76,       234,
     30.77,       214,
     30.78,       190,
     30.79,       211,
      30.8,       207,
     30.81,       208,
     30.82,       232,
     30.83,       210,
     30.84,       216,
     30.85,       215,
     30.86,       227,
     30.87,       219,
     30.88,       207,
     30.89,       190,
      30.9,       211,
     30.91,       203,
     30.92,       224,
     30.93,       223,
     30.94,       189,
     30.95,       217,
     30.96,       216,
     30.97,       220,
     30.98,       229,
     30.99,       211,
        31,       215,
     31.01,       190,
     31.02,       252,
     31.03,       215,
     31.04,       214,
     31.05,       189,
     31.06,       213,
     31.07,       204,
     31.08,       195,
     31.09,       221,
      31.1,       206,
     31.11,       213,
     31.12,       254,
     31.13,       238,
     31.14,       234,
     31.15,       211,
     31.16,       218,
     31.17,       217,
     31.18,       222,
     31.19,       221,
      31.2,       229,
     31.21,       231,
     31.22,       216,
     31.23,       223,
     31.24,       226,
     31.25,       267,
     31.26,       242,
     31.27,       245,
     31.28,       255,
     31.29,       299,
      31.3,       282,
     31.31,       291,
     31.32,       315,
     31.33,       321,
     31.34,       340,
     31.35,       352,
     31.36,       300,
     31.37,       369,
     31.38,       378,
     31.39,       398,
      31.4,       397,
     31.41,       454,
     31.42,       443,
     31.43,       454,
     31.44,       441,
     31.45,       487,
     31.46,       479,
     31.47,       489,
     31.48,       517,
     31.49,       575,
      31.5,       558,
     31.51,       657,
     31.52,       650,
     31.53,       745,
     31.54,       902,
     31.55,       956,
     31.56,      1139,
     31.57,      1228,
     31.58,      1477,
     31.59,      1809,
      31.6,      2051,
     31.61,      2319,
     31.62,      2907,
     31.63,      3450,
     31.64,      3952,
     31.65,      5064,
     31.66,      6283,
     31.67,      8104,
     31.68,     10493,
     31.69,     13602,
      31.7,     17157,
     31.71,     19068,
     31.72,     19756,
     31.73,     19337,
     31.74,     17385,
     31.75,     14855,
     31.76,     12005,
     31.77,     10434,
     31.78,     10439,
     31.79,     10500,
      31.8,     10274,
     31.81,      9467,
     31.82,      8068,
     31.83,      6386,
     31.84,      4382,
     31.85,      2889,
     31.86,      1861,
     31.87,      1332,
     31.88,      1014,
     31.89,       910,
      31.9,       783,
     31.91,       756,
     31.92,       681,
     31.93,       651,
     31.94,       617,
     31.95,       579,
     31.96,       569,
     31.97,       498,
     31.98,       599,
     31.99,       515,
        32,       526,
     32.01,       532,
     32.02,       472,
     32.03,       456,
     32.04,       408,
     32.05,       437,
     32.06,       370,
     32.07,       355,
     32.08,       344,
     32.09,       331,
      32.1,       324,
     32.11,       267,
     32.12,       312,
     32.13,       292,
     32.14,       265,
     32.15,       240,
     32.16,       246,
     32.17,       220,
     32.18,       236,
     32.19,       237,
      32.2,       212,
     32.21,       219,
     32.22,       203,
     32.23,       222,
     32.24,       226,
     32.25,       232,
     32.26,       218,
     32.27,       209,
     32.28,       207,
     32.29,       220,
      32.3,       193,
     32.31,       216,
     32.32,       200,
     32.33,       205,
     32.34,       194,
     32.35,       201,
     32.36,       209,
     32.37,       219,
     32.38,       185,
     32.39,       173,
      32.4,       189,
     32.41,       196,
     32.42,       202,
     32.43,       190,
     32.44,       200,
     32.45,       181,
     32.46,       169,
     32.47,       183,
     32.48,       179,
     32.49,       197,
      32.5,       208,
     32.51,       170,
     32.52,       203,
     32.53,       197,
     32.54,       172,
     32.55,       183,
     32.56,       155,
     32.57,       180,
     32.58,       190,
     32.59,       188,
      32.6,       194,
     32.61,       182,
     32.62,       194,
     32.63,       191,
     32.64,       162,
     32.65,       175,
     32.66,       171,
     32.67,       162,
     32.68,       189,
     32.69,       173,
      32.7,       167,
     32.71,       170,
     32.72,       181,
     32.73,       166,
     32.74,       170,
     32.75,       198,
     32.76,       176,
     32.77,       179,
     32.78,       178,
     32.79,       201,
      32.8,       183,
     32.81,       169,
     32.82,       175,
     32.83,       147,
     32.84,       169,
     32.85,       181,
     32.86,       163,
     32.87,       177,
     32.88,       168,
     32.89,       155,
      32.9,       188,
     32.91,       192,
     32.92,       170,
     32.93,       168,
     32.94,       181,
     32.95,       170,
     32.96,       153,
     32.97,       166,
     32.98,       166,
     32.99,       172,
        33,       156,
     33.01,       181,
     33.02,       155,
     33.03,       171,
     33.04,       168,
     33.05,       149,
     33.06,       157,
     33.07,       177,
     33.08,       152,
     33.09,       156,
      33.1,       165,

File: 2 1 0.6.txt
      31.1,       613,
     31.11,       699,
     31.12,       677,
     31.13,       677,
     31.14,       663,
     31.15,       661,
     31.16,       723,
     31.17,       630,
     31.18,       696,
     31.19,       725,
      31.2,       734,
     31.21,       653,
     31.22,       717,
     31.23,       716,
     31.24,       809,
     31.25,       767,
     31.26,       827,
     31.27,       739,
     31.28,       857,
     31.29,       930,
      31.3,       904,
     31.31,       927,
     31.32,       958,
     31.33,      1006,
     31.34,      1004,
     31.35,      1037,
     31.36,      1144,
     31.37,      1150,
     31.38,      1265,
     31.39,      1240,
      31.4,      1285,
     31.41,      1329,
     31.42,      1321,
     31.43,      1341,
     31.44,      1427,
     31.45,      1568,
     31.46,      1652,
     31.47,      1744,
     31.48,      1916,
     31.49,      2187,
      31.5,      2417,
     31.51,      2553,
     31.52,      2885,
     31.53,      3278,
     31.54,      3767,
     31.55,      4429,
     31.56,      5102,
     31.57,      6090,
     31.58,      7112,
     31.59,      8931,
      31.6,     10872,
     31.61,     13482,
     31.62,     16586,
     31.63,     20605,
     31.64,     24142,
     31.65,     27089,
     31.66,     28625,
     31.67,     29796,
     31.68,     31050,
     31.69,     32007,
      31.7,     33352,
     31.71,     34692,
     31.72,     36164,
     31.73,     36947,
     31.74,     37260,
     31.75,     37099,
     31.76,     36765,
     31.77,     35395,
     31.78,     33440,
     31.79,     30994,
      31.8,     27080,
     31.81,     22776,
     31.82,     19062,
     31.83,     16517,
     31.84,     14887,
     31.85,     13477,
     31.86,     12257,
     31.87,     10774,
     31.88,      8913,
     31.89,      6606,
      31.9,      4641,
     31.91,      3334,
     31.92,      2669,
     31.93,      2262,
     31.94,      2089,
     31.95,      1822,
     31.96,      1707,
     31.97,      1701,
     31.98,      1642,
     31.99,      1602,
        32,      1453,
     32.01,      1444,
     32.02,      1337,
     32.03,      1382,
     32.04,      1271,
     32.05,      1212,
     32.06,      1167,
     32.07,      1167,
     32.08,      1018,
     32.09,      1044,
      32.1,      1006,
     32.11,       908,
     32.12,       923,
     32.13,       889,
     32.14,       777,
     32.15,       793,
     32.16,       755,
     32.17,       798,
     32.18,       738,
     32.19,       714,
      32.2,       691,
     32.21,       653,
     32.22,       693,
     32.23,       659,
     32.24,       631,
     32.25,       641,
     32.26,       567,
     32.27,       606,
     32.28,       642,
     32.29,       632,
      32.3,       592,
     32.31,       621,
     32.32,       620,
     32.33,       601,
     32.34,       604,
     32.35,       584,
     32.36,       610,
     32.37,       596,
     32.38,       631,
     32.39,       563,
      32.4,       588,

File: 2 1 1.txt
      31.1,      1093,
     31.11,      1078,
     31.12,      1012,
     31.13,      1088,
     31.14,      1062,
     31.15,      1107,
     31.16,      1106,
     31.17,      1095,
     31.18,      1131,
     31.19,      1146,
      31.2,      1211,
     31.21,      1242,
     31.22,      1170,
     31.23,      1220,
     31.24,      1290,
     31.25,      1343,
     31.26,      1335,
     31.27,      1367,
     31.28,      1415,
     31.29,      1429,
      31.3,      1425,
     31.31,      1492,
     31.32,      1616,
     31.33,      1620,
     31.34,      1787,
     31.35,      1773,
     31.36,      1915,
     31.37,      1992,
     31.38,      2027,
     31.39,      2051,
      31.4,      2298,
     31.41,      2441,
     31.42,      2646,
     31.43,      2926,
     31.44,      3047,
     31.45,      3611,
     31.46,      4017,
     31.47,      4637,
     31.48,      5373,
     31.49,      6307,
      31.5,      7253,
     31.51,      8377,
     31.52,      9678,
     31.53,     11083,
     31.54,     12722,
     31.55,     14380,
     31.56,     16580,
     31.57,     18329,
     31.58,     20847,
     31.59,     23395,
      31.6,     25859,
     31.61,     28496,
     31.62,     30854,
     31.63,     32441,
     31.64,     33834,
     31.65,     35558,
     31.66,     36610,
     31.67,     36622,
     31.68,     38168,
     31.69,     39315,
      31.7,     39843,
     31.71,     40176,
     31.72,     40489,
     31.73,     40504,
     31.74,     40687,
     31.75,     40137,
     31.76,     39926,
     31.77,     39661,
     31.78,     38855,
     31.79,     38612,
      31.8,     38107,
     31.81,     36944,
     31.82,     35321,
     31.83,     33281,
     31.84,     29850,
     31.85,     25643,
     31.86,     21443,
     31.87,     17735,
     31.88,     16168,
     31.89,     14916,
      31.9,     13617,
     31.91,     12162,
     31.92,     10343,
     31.93,      8291,
     31.94,      6042,
     31.95,      4509,
     31.96,      3556,
     31.97,      2871,
     31.98,      2596,
     31.99,      2484,
        32,      2293,
     32.01,      2175,
     32.02,      2094,
     32.03,      2048,
     32.04,      1932,
     32.05,      1854,
     32.06,      1798,
     32.07,      1737,
     32.08,      1694,
     32.09,      1580,
      32.1,      1594,
     32.11,      1531,
     32.12,      1450,
     32.13,      1495,
     32.14,      1391,
     32.15,      1350,
     32.16,      1314,
     32.17,      1292,
     32.18,      1245,
     32.19,      1216,
      32.2,      1215,
     32.21,      1112,
     32.22,      1056,
     32.23,      1126,
     32.24,      1107,
     32.25,      1046,
     32.26,      1024,
     32.27,       963,
     32.28,      1013,
     32.29,       984,
      32.3,       971,
     32.31,       985,
     32.32,      1025,
     32.33,       988,
     32.34,       908,
     32.35,       955,
     32.36,       951,
     32.37,       964,
     32.38,       928,
     32.39,       946,
      32.4,       976,

File: 2 1 2.txt
      31.1,      2117,
     31.11,      2072,
     31.12,      2135,
     31.13,      2174,
     31.14,      2118,
     31.15,      2121,
     31.16,      2162,
     31.17,      2266,
     31.18,      2376,
     31.19,      2395,
      31.2,      2329,
     31.21,      2500,
     31.22,      2511,
     31.23,      2526,
     31.24,      2623,
     31.25,      2812,
     31.26,      2754,
     31.27,      2820,
     31.28,      3044,
     31.29,      3148,
      31.3,      3415,
     31.31,      3652,
     31.32,      4043,
     31.33,      4476,
     31.34,      4874,
     31.35,      5533,
     31.36,      6532,
     31.37,      7720,
     31.38,      8975,
     31.39,     10678,
      31.4,     12176,
     31.41,     13536,
     31.42,     15138,
     31.43,     16520,
     31.44,     17991,
     31.45,     19766,
     31.46,     20795,
     31.47,     22047,
     31.48,     23346,
     31.49,     23927,
      31.5,     24754,
     31.51,     25695,
     31.52,     26766,
     31.53,     26936,
     31.54,     27403,
     31.55,     28291,
     31.56,     28596,
     31.57,     29196,
     31.58,     30106,
     31.59,     31392,
      31.6,     33235,
     31.61,     34673,
     31.62,     35952,
     31.63,     36708,
     31.64,     38382,
     31.65,     38617,
     31.66,     39262,
     31.67,     39409,
     31.68,     40210,
     31.69,     40858,
      31.7,     41804,
     31.71,     42264,
     31.72,     42473,
     31.73,     42698,
     31.74,     42967,
     31.75,     42110,
     31.76,     42746,
     31.77,     42548,
     31.78,     42711,
     31.79,     42916,
      31.8,     42869,
     31.81,     42960,
     31.82,     43115,
     31.83,     43303,
     31.84,     43340,
     31.85,     43693,
     31.86,     44298,
     31.87,     44416,
     31.88,     45181,
     31.89,     45694,
      31.9,     45526,
     31.91,     45472,
     31.92,     45261,
     31.93,     45012,
     31.94,     43708,
     31.95,     43591,
     31.96,     42554,
     31.97,     39964,
     31.98,     36581,
     31.99,     32733,
        32,     28112,
     32.01,     23981,
     32.02,     20816,
     32.03,     18678,
     32.04,     16999,
     32.05,     15394,
     32.06,     13413,
     32.07,     11431,
     32.08,      8848,
     32.09,      7045,
      32.1,      5371,
     32.11,      4477,
     32.12,      3798,
     32.13,      3593,
     32.14,      3295,
     32.15,      3151,
     32.16,      2994,
     32.17,      2890,
     32.18,      2754,
     32.19,      2640,
      32.2,      2657,
     32.21,      2510,
     32.22,      2496,
     32.23,      2353,
     32.24,      2348,
     32.25,      2374,
     32.26,      2254,
     32.27,      2304,
     32.28,      2186,
     32.29,      2249,
      32.3,      2205,
     32.31,      2098,
     32.32,      2044,
     32.33,      1980,
     32.34,      1853,
     32.35,      1917,
     32.36,      1822,
     32.37,      1926,
     32.38,      1888,
     32.39,      1834,
      32.4,      1782,

File: 2 1 6.txt
        30,      2636,
     30.02,      2574,
     30.04,      2469,
     30.06,      2556,
     30.08,      2524,
      30.1,      2503,
     30.12,      2497,
     30.14,      2590,
     30.16,      2585,
     30.18,      2523,
      30.2,      2564,
     30.22,      2533,
     30.24,      2641,
     30.26,      2627,
     30.28,      2632,
      30.3,      2566,
     30.32,      2642,
     30.34,      2669,
     30.36,      2611,
     30.38,      2681,
      30.4,      2756,
     30.42,      2661,
     30.44,      2628,
     30.46,      2749,
     30.48,      2758,
      30.5,      2747,
     30.52,      2741,
     30.54,      2754,
     30.56,      2871,
     30.58,      2702,
      30.6,      2865,
     30.62,      2876,
     30.64,      3002,
     30.66,      2942,
     30.68,      2823,
      30.7,      2929,
     30.72,      3057,
     30.74,      2991,
     30.76,      2922,
     30.78,      3050,
      30.8,      3066,
     30.82,      3097,
     30.84,      3024,
     30.86,      3218,
     30.88,      3184,
      30.9,      3337,
     30.92,      3370,
     30.94,      3357,
     30.96,      3527,
     30.98,      3549,
        31,      3633,
     31.02,      3956,
     31.04,      4303,
     31.06,      4985,
     31.08,      5781,
      31.1,      7263,
     31.12,      9486,
     31.14,     12095,
     31.16,     14660,
     31.18,     16660,
      31.2,     18240,
     31.22,     20211,
     31.24,     21615,
     31.26,     22646,
     31.28,     23714,
      31.3,     24514,
     31.32,     24846,
     31.34,     25508,
     31.36,     26341,
     31.38,     26710,
      31.4,     27358,
     31.42,     27593,
     31.44,     28520,
     31.46,     28809,
     31.48,     29038,
      31.5,     29524,
     31.52,     30206,
     31.54,     30796,
     31.56,     31147,
     31.58,     32918,
      31.6,     35476,
     31.62,     38381,
     31.64,     40458,
     31.66,     41377,
     31.68,     42559,
      31.7,     44195,
     31.72,     44603,
     31.74,     44884,
     31.76,     44966,
     31.78,     44368,
      31.8,     44723,
     31.82,     44619,
     31.84,     45933,
     31.86,     46707,
     31.88,     48535,
      31.9,     49344,
     31.92,     49374,
     31.94,     49726,
     31.96,     50299,
     31.98,     50161,
        32,     49814,
     32.02,     48727,
     32.04,     48271,
     32.06,     47222,
     32.08,     46505,
      32.1,     44623,
     32.12,     43014,
     32.14,     41196,
     32.16,     38321,
     32.18,     34602,
      32.2,     28324,
     32.22,     21748,
     32.24,     17480,
     32.26,     14008,
     32.28,     10534,
      32.3,      7338,
     32.32,      5382,
     32.34,      4404,
     32.36,      3994,
     32.38,      3768,
      32.4,      3465,
     32.42,      3413,
     32.44,      3296,
     32.46,      3129,
     32.48,      3142,
      32.5,      2997,
     32.52,      2983,
     32.54,      2911,
     32.56,      2728,
     32.58,      2739,
      32.6,      2657,
     32.62,      2826,
     32.64,      2659,
     32.66,      2668,
     32.68,      2653,
      32.7,      2649,
     32.72,      2607,
     32.74,      2510,
     32.76,      2554,
     32.78,      2609,
      32.8,      2581,
     32.82,      2596,
     32.84,      2611,
     32.86,      2523,
     32.88,      2570,
      32.9,      2519,
     32.92,      2501,
     32.94,      2492,
     32.96,      2427,
     32.98,      2533,
        33,      2490,
     33.02,      2368,
     33.04,      2308,
     33.06,      2430,
     33.08,      2456,
      33.1,      2412,
     33.12,      2446,
     33.14,      2419,
     33.16,      2358,
     33.18,      2401,
      33.2,      2449,
     33.22,      2397,
     33.24,      2327,
     33.26,      2342,
     33.28,      2385,
      33.3,      2288,
     33.32,      2314,
     33.34,      2252,
     33.36,      2323,
     33.38,      2322,
      33.4,      2311,
     33.42,      2289,
     33.44,      2279,
     33.46,      2314,
     33.48,      2217,
      33.5,      2261,
     33.52,      2263,
     33.54,      2226,
     33.56,      2165,
     33.58,      2203,
      33.6,      2271,
     33.62,      2243,
     33.64,      2202,
     33.66,      2219,
     33.68,      2174,
      33.7,      2253,
     33.72,      2320,
     33.74,      2161,
     33.76,      2157,
     33.78,      2140,
      33.8,      2164,
     33.82,      2173,
     33.84,      2185,
     33.86,      2167,
     33.88,      2175,
      33.9,      2135,
     33.92,      2258,
     33.94,      2045,
     33.96,      2114,
     33.98,      2055,
        34,      2152,